#  E (eV)   dos(E)     Int dos(E)
  5.000  0.0000E+00  0.0000E+00
  5.010  0.0000E+00  0.0000E+00
  5.020  0.0000E+00  0.0000E+00
  5.030  0.0000E+00  0.0000E+00
  5.040  0.0000E+00  0.0000E+00
  5.050  0.0000E+00  0.0000E+00
  5.060  0.0000E+00  0.0000E+00
  5.070  0.0000E+00  0.0000E+00
  5.080  0.0000E+00  0.0000E+00
  5.090  0.0000E+00  0.0000E+00
  5.100  0.0000E+00  0.0000E+00
  5.110  0.0000E+00  0.0000E+00
  5.120  0.0000E+00  0.0000E+00
  5.130  0.0000E+00  0.0000E+00
  5.140  0.0000E+00  0.0000E+00
  5.150  0.0000E+00  0.0000E+00
  5.160  0.0000E+00  0.0000E+00
  5.170  0.0000E+00  0.0000E+00
  5.180  0.0000E+00  0.0000E+00
  5.190  0.0000E+00  0.0000E+00
  5.200  0.0000E+00  0.0000E+00
  5.210  0.0000E+00  0.0000E+00
  5.220  0.0000E+00  0.0000E+00
  5.230  0.0000E+00  0.0000E+00
  5.240  0.0000E+00  0.0000E+00
  5.250  0.0000E+00  0.0000E+00
  5.260  0.0000E+00  0.0000E+00
  5.270  0.0000E+00  0.0000E+00
  5.280  0.0000E+00  0.0000E+00
  5.290  0.0000E+00  0.0000E+00
  5.300  0.0000E+00  0.0000E+00
  5.310  0.0000E+00  0.0000E+00
  5.320  0.0000E+00  0.0000E+00
  5.330  0.0000E+00  0.0000E+00
  5.340  0.0000E+00  0.0000E+00
  5.350  0.0000E+00  0.0000E+00
  5.360  0.0000E+00  0.0000E+00
  5.370  0.0000E+00  0.0000E+00
  5.380  0.0000E+00  0.0000E+00
  5.390  0.0000E+00  0.0000E+00
  5.400  0.0000E+00  0.0000E+00
  5.410  0.0000E+00  0.0000E+00
  5.420  0.0000E+00  0.0000E+00
  5.430  0.0000E+00  0.0000E+00
  5.440  0.0000E+00  0.0000E+00
  5.450  0.0000E+00  0.0000E+00
  5.460  0.0000E+00  0.0000E+00
  5.470  0.0000E+00  0.0000E+00
  5.480  0.0000E+00  0.0000E+00
  5.490  0.0000E+00  0.0000E+00
  5.500  0.0000E+00  0.0000E+00
  5.510  0.0000E+00  0.0000E+00
  5.520  0.0000E+00  0.0000E+00
  5.530  0.0000E+00  0.0000E+00
  5.540  0.0000E+00  0.0000E+00
  5.550  0.0000E+00  0.0000E+00
  5.560  0.0000E+00  0.0000E+00
  5.570  0.0000E+00  0.0000E+00
  5.580  0.0000E+00  0.0000E+00
  5.590  0.0000E+00  0.0000E+00
  5.600  0.0000E+00  0.0000E+00
  5.610  0.0000E+00  0.0000E+00
  5.620  0.0000E+00  0.0000E+00
  5.630  0.0000E+00  0.0000E+00
  5.640  0.0000E+00  0.0000E+00
  5.650  0.0000E+00  0.0000E+00
  5.660  0.0000E+00  0.0000E+00
  5.670  0.0000E+00  0.0000E+00
  5.680  0.0000E+00  0.0000E+00
  5.690  0.0000E+00  0.0000E+00
  5.700  0.0000E+00  0.0000E+00
  5.710  0.0000E+00  0.0000E+00
  5.720  0.0000E+00  0.0000E+00
  5.730  0.0000E+00  0.0000E+00
  5.740  0.0000E+00  0.0000E+00
  5.750  0.0000E+00  0.0000E+00
  5.760  0.0000E+00  0.0000E+00
  5.770  0.0000E+00  0.0000E+00
  5.780  0.0000E+00  0.0000E+00
  5.790  0.0000E+00  0.0000E+00
  5.800  0.0000E+00  0.0000E+00
  5.810  0.0000E+00  0.0000E+00
  5.820  0.0000E+00  0.0000E+00
  5.830  0.0000E+00  0.0000E+00
  5.840  0.0000E+00  0.0000E+00
  5.850  0.0000E+00  0.0000E+00
  5.860  0.0000E+00  0.0000E+00
  5.870  0.3315E-04  0.3315E-06
  5.880  0.1917E-03  0.2249E-05
  5.890  0.4812E-03  0.7061E-05
  5.900  0.9015E-03  0.1608E-04
  5.910  0.1453E-02  0.3060E-04
  5.920  0.2135E-02  0.5195E-04
  5.930  0.2947E-02  0.8142E-04
  5.940  0.3891E-02  0.1203E-03
  5.950  0.1076E-01  0.2280E-03
  5.960  0.1221E-01  0.3501E-03
  5.970  0.1348E-01  0.4849E-03
  5.980  0.1455E-01  0.6304E-03
  5.990  0.1544E-01  0.7848E-03
  6.000  0.1613E-01  0.9461E-03
  6.010  0.1664E-01  0.1112E-02
  6.020  0.1696E-01  0.1282E-02
  6.030  0.1718E-01  0.1454E-02
  6.040  0.1764E-01  0.1630E-02
  6.050  0.1836E-01  0.1814E-02
  6.060  0.1934E-01  0.2007E-02
  6.070  0.2059E-01  0.2213E-02
  6.080  0.2210E-01  0.2434E-02
  6.090  0.2388E-01  0.2673E-02
  6.100  0.2592E-01  0.2932E-02
  6.110  0.2678E-01  0.3200E-02
  6.120  0.2723E-01  0.3472E-02
  6.130  0.2772E-01  0.3749E-02
  6.140  0.2824E-01  0.4032E-02
  6.150  0.2880E-01  0.4320E-02
  6.160  0.2939E-01  0.4614E-02
  6.170  0.3002E-01  0.4914E-02
  6.180  0.3069E-01  0.5221E-02
  6.190  0.3131E-01  0.5534E-02
  6.200  0.3178E-01  0.5852E-02
  6.210  0.3208E-01  0.6173E-02
  6.220  0.3222E-01  0.6495E-02
  6.230  0.3220E-01  0.6817E-02
  6.240  0.3201E-01  0.7137E-02
  6.250  0.3167E-01  0.7454E-02
  6.260  0.3117E-01  0.7765E-02
  6.270  0.3189E-01  0.8084E-02
  6.280  0.3273E-01  0.8411E-02
  6.290  0.3365E-01  0.8748E-02
  6.300  0.3467E-01  0.9095E-02
  6.310  0.3578E-01  0.9453E-02
  6.320  0.3698E-01  0.9822E-02
  6.330  0.3827E-01  0.1021E-01
  6.340  0.3963E-01  0.1060E-01
  6.350  0.4086E-01  0.1101E-01
  6.360  0.4193E-01  0.1143E-01
  6.370  0.4284E-01  0.1186E-01
  6.380  0.4358E-01  0.1229E-01
  6.390  0.4416E-01  0.1273E-01
  6.400  0.4458E-01  0.1318E-01
  6.410  0.4484E-01  0.1363E-01
  6.420  0.4179E-01  0.1405E-01
  6.430  0.4262E-01  0.1447E-01
  6.440  0.4338E-01  0.1491E-01
  6.450  0.4407E-01  0.1535E-01
  6.460  0.4468E-01  0.1579E-01
  6.470  0.4523E-01  0.1625E-01
  6.480  0.4570E-01  0.1670E-01
  6.490  0.4610E-01  0.1716E-01
  6.500  0.4645E-01  0.1763E-01
  6.510  0.4679E-01  0.1810E-01
  6.520  0.4715E-01  0.1857E-01
  6.530  0.4750E-01  0.1904E-01
  6.540  0.4787E-01  0.1952E-01
  6.550  0.4823E-01  0.2000E-01
  6.560  0.4861E-01  0.2049E-01
  6.570  0.4876E-01  0.2098E-01
  6.580  0.4875E-01  0.2147E-01
  6.590  0.4888E-01  0.2195E-01
  6.600  0.4912E-01  0.2245E-01
  6.610  0.4949E-01  0.2294E-01
  6.620  0.4999E-01  0.2344E-01
  6.630  0.5061E-01  0.2395E-01
  6.640  0.5136E-01  0.2446E-01
  6.650  0.5220E-01  0.2498E-01
  6.660  0.5310E-01  0.2551E-01
  6.670  0.5406E-01  0.2605E-01
  6.680  0.5507E-01  0.2660E-01
  6.690  0.5614E-01  0.2717E-01
  6.700  0.5727E-01  0.2774E-01
  6.710  0.5845E-01  0.2832E-01
  6.720  0.5885E-01  0.2891E-01
  6.730  0.5916E-01  0.2950E-01
  6.740  0.5946E-01  0.3010E-01
  6.750  0.5977E-01  0.3070E-01
  6.760  0.6008E-01  0.3130E-01
  6.770  0.6039E-01  0.3190E-01
  6.780  0.6070E-01  0.3251E-01
  6.790  0.6100E-01  0.3312E-01
  6.800  0.6125E-01  0.3373E-01
  6.810  0.6142E-01  0.3434E-01
  6.820  0.6151E-01  0.3496E-01
  6.830  0.6152E-01  0.3557E-01
  6.840  0.6146E-01  0.3619E-01
  6.850  0.6133E-01  0.3680E-01
  6.860  0.6142E-01  0.3742E-01
  6.870  0.6188E-01  0.3804E-01
  6.880  0.6234E-01  0.3866E-01
  6.890  0.6280E-01  0.3929E-01
  6.900  0.6326E-01  0.3992E-01
  6.910  0.6372E-01  0.4056E-01
  6.920  0.6418E-01  0.4120E-01
  6.930  0.6464E-01  0.4184E-01
  6.940  0.6510E-01  0.4250E-01
  6.950  0.6556E-01  0.4315E-01
  6.960  0.6602E-01  0.4381E-01
  6.970  0.6647E-01  0.4448E-01
  6.980  0.6693E-01  0.4515E-01
  6.990  0.6738E-01  0.4582E-01
  7.000  0.6784E-01  0.4650E-01
  7.010  0.6832E-01  0.4718E-01
  7.020  0.6887E-01  0.4787E-01
  7.030  0.6941E-01  0.4856E-01
  7.040  0.6993E-01  0.4926E-01
  7.050  0.7045E-01  0.4997E-01
  7.060  0.7095E-01  0.5068E-01
  7.070  0.7146E-01  0.5139E-01
  7.080  0.7201E-01  0.5211E-01
  7.090  0.7262E-01  0.5284E-01
  7.100  0.7329E-01  0.5357E-01
  7.110  0.7402E-01  0.5431E-01
  7.120  0.7480E-01  0.5506E-01
  7.130  0.7564E-01  0.5582E-01
  7.140  0.7654E-01  0.5658E-01
  7.150  0.7693E-01  0.5735E-01
  7.160  0.7726E-01  0.5812E-01
  7.170  0.7759E-01  0.5890E-01
  7.180  0.7794E-01  0.5968E-01
  7.190  0.7830E-01  0.6046E-01
  7.200  0.7867E-01  0.6125E-01
  7.210  0.7905E-01  0.6204E-01
  7.220  0.7942E-01  0.6283E-01
  7.230  0.7978E-01  0.6363E-01
  7.240  0.8012E-01  0.6443E-01
  7.250  0.8045E-01  0.6524E-01
  7.260  0.8078E-01  0.6604E-01
  7.270  0.8110E-01  0.6685E-01
  7.280  0.8142E-01  0.6767E-01
  7.290  0.8189E-01  0.6849E-01
  7.300  0.8229E-01  0.6931E-01
  7.310  0.8263E-01  0.7014E-01
  7.320  0.8296E-01  0.7097E-01
  7.330  0.8328E-01  0.7180E-01
  7.340  0.8358E-01  0.7264E-01
  7.350  0.8388E-01  0.7347E-01
  7.360  0.8416E-01  0.7432E-01
  7.370  0.8442E-01  0.7516E-01
  7.380  0.8465E-01  0.7601E-01
  7.390  0.8485E-01  0.7685E-01
  7.400  0.8501E-01  0.7770E-01
  7.410  0.8549E-01  0.7856E-01
  7.420  0.8608E-01  0.7942E-01
  7.430  0.8667E-01  0.8029E-01
  7.440  0.8726E-01  0.8116E-01
  7.450  0.8784E-01  0.8204E-01
  7.460  0.8842E-01  0.8292E-01
  7.470  0.8899E-01  0.8381E-01
  7.480  0.8957E-01  0.8471E-01
  7.490  0.9013E-01  0.8561E-01
  7.500  0.9071E-01  0.8652E-01
  7.510  0.9130E-01  0.8743E-01
  7.520  0.9192E-01  0.8835E-01
  7.530  0.9256E-01  0.8927E-01
  7.540  0.9322E-01  0.9021E-01
  7.550  0.9390E-01  0.9115E-01
  7.560  0.9460E-01  0.9209E-01
  7.570  0.9530E-01  0.9304E-01
  7.580  0.9601E-01  0.9400E-01
  7.590  0.9673E-01  0.9497E-01
  7.600  0.9745E-01  0.9595E-01
  7.610  0.9818E-01  0.9693E-01
  7.620  0.9892E-01  0.9792E-01
  7.630  0.9960E-01  0.9891E-01
  7.640  0.1002E+00  0.9991E-01
  7.650  0.1007E+00  0.1009E+00
  7.660  0.1012E+00  0.1019E+00
  7.670  0.1016E+00  0.1030E+00
  7.680  0.1013E+00  0.1040E+00
  7.690  0.1016E+00  0.1050E+00
  7.700  0.1020E+00  0.1060E+00
  7.710  0.1024E+00  0.1070E+00
  7.720  0.1028E+00  0.1081E+00
  7.730  0.1032E+00  0.1091E+00
  7.740  0.1037E+00  0.1101E+00
  7.750  0.1042E+00  0.1112E+00
  7.760  0.1047E+00  0.1122E+00
  7.770  0.1053E+00  0.1133E+00
  7.780  0.1058E+00  0.1143E+00
  7.790  0.1064E+00  0.1154E+00
  7.800  0.1070E+00  0.1165E+00
  7.810  0.1075E+00  0.1175E+00
  7.820  0.1080E+00  0.1186E+00
  7.830  0.1085E+00  0.1197E+00
  7.840  0.1090E+00  0.1208E+00
  7.850  0.1096E+00  0.1219E+00
  7.860  0.1102E+00  0.1230E+00
  7.870  0.1107E+00  0.1241E+00
  7.880  0.1113E+00  0.1252E+00
  7.890  0.1118E+00  0.1263E+00
  7.900  0.1123E+00  0.1274E+00
  7.910  0.1128E+00  0.1286E+00
  7.920  0.1133E+00  0.1297E+00
  7.930  0.1138E+00  0.1308E+00
  7.940  0.1143E+00  0.1320E+00
  7.950  0.1147E+00  0.1331E+00
  7.960  0.1152E+00  0.1343E+00
  7.970  0.1156E+00  0.1354E+00
  7.980  0.1160E+00  0.1366E+00
  7.990  0.1164E+00  0.1378E+00
  8.000  0.1167E+00  0.1389E+00
  8.010  0.1175E+00  0.1401E+00
  8.020  0.1184E+00  0.1413E+00
  8.030  0.1192E+00  0.1425E+00
  8.040  0.1200E+00  0.1437E+00
  8.050  0.1208E+00  0.1449E+00
  8.060  0.1215E+00  0.1461E+00
  8.070  0.1224E+00  0.1473E+00
  8.080  0.1232E+00  0.1486E+00
  8.090  0.1240E+00  0.1498E+00
  8.100  0.1249E+00  0.1511E+00
  8.110  0.1258E+00  0.1523E+00
  8.120  0.1266E+00  0.1536E+00
  8.130  0.1275E+00  0.1548E+00
  8.140  0.1284E+00  0.1561E+00
  8.150  0.1294E+00  0.1574E+00
  8.160  0.1303E+00  0.1587E+00
  8.170  0.1312E+00  0.1600E+00
  8.180  0.1322E+00  0.1614E+00
  8.190  0.1330E+00  0.1627E+00
  8.200  0.1336E+00  0.1640E+00
  8.210  0.1342E+00  0.1654E+00
  8.220  0.1348E+00  0.1667E+00
  8.230  0.1353E+00  0.1681E+00
  8.240  0.1358E+00  0.1694E+00
  8.250  0.1363E+00  0.1708E+00
  8.260  0.1368E+00  0.1722E+00
  8.270  0.1372E+00  0.1735E+00
  8.280  0.1378E+00  0.1749E+00
  8.290  0.1384E+00  0.1763E+00
  8.300  0.1390E+00  0.1777E+00
  8.310  0.1397E+00  0.1791E+00
  8.320  0.1404E+00  0.1805E+00
  8.330  0.1412E+00  0.1819E+00
  8.340  0.1420E+00  0.1833E+00
  8.350  0.1428E+00  0.1847E+00
  8.360  0.1437E+00  0.1862E+00
  8.370  0.1446E+00  0.1876E+00
  8.380  0.1456E+00  0.1891E+00
  8.390  0.1465E+00  0.1905E+00
  8.400  0.1474E+00  0.1920E+00
  8.410  0.1483E+00  0.1935E+00
  8.420  0.1491E+00  0.1950E+00
  8.430  0.1500E+00  0.1965E+00
  8.440  0.1509E+00  0.1980E+00
  8.450  0.1518E+00  0.1995E+00
  8.460  0.1527E+00  0.2011E+00
  8.470  0.1535E+00  0.2026E+00
  8.480  0.1544E+00  0.2041E+00
  8.490  0.1552E+00  0.2057E+00
  8.500  0.1560E+00  0.2072E+00
  8.510  0.1567E+00  0.2088E+00
  8.520  0.1575E+00  0.2104E+00
  8.530  0.1582E+00  0.2120E+00
  8.540  0.1588E+00  0.2136E+00
  8.550  0.1595E+00  0.2151E+00
  8.560  0.1601E+00  0.2167E+00
  8.570  0.1607E+00  0.2184E+00
  8.580  0.1619E+00  0.2200E+00
  8.590  0.1632E+00  0.2216E+00
  8.600  0.1645E+00  0.2233E+00
  8.610  0.1658E+00  0.2249E+00
  8.620  0.1671E+00  0.2266E+00
  8.630  0.1683E+00  0.2283E+00
  8.640  0.1696E+00  0.2300E+00
  8.650  0.1709E+00  0.2317E+00
  8.660  0.1722E+00  0.2334E+00
  8.670  0.1735E+00  0.2351E+00
  8.680  0.1748E+00  0.2369E+00
  8.690  0.1761E+00  0.2386E+00
  8.700  0.1774E+00  0.2404E+00
  8.710  0.1788E+00  0.2422E+00
  8.720  0.1801E+00  0.2440E+00
  8.730  0.1815E+00  0.2458E+00
  8.740  0.1828E+00  0.2476E+00
  8.750  0.1842E+00  0.2495E+00
  8.760  0.1855E+00  0.2513E+00
  8.770  0.1868E+00  0.2532E+00
  8.780  0.1881E+00  0.2551E+00
  8.790  0.1894E+00  0.2570E+00
  8.800  0.1908E+00  0.2589E+00
  8.810  0.1922E+00  0.2608E+00
  8.820  0.1936E+00  0.2627E+00
  8.830  0.1951E+00  0.2647E+00
  8.840  0.1966E+00  0.2667E+00
  8.850  0.1982E+00  0.2686E+00
  8.860  0.1996E+00  0.2706E+00
  8.870  0.2012E+00  0.2727E+00
  8.880  0.2029E+00  0.2747E+00
  8.890  0.2046E+00  0.2767E+00
  8.900  0.2064E+00  0.2788E+00
  8.910  0.2083E+00  0.2809E+00
  8.920  0.2102E+00  0.2830E+00
  8.930  0.2121E+00  0.2851E+00
  8.940  0.2141E+00  0.2872E+00
  8.950  0.2160E+00  0.2894E+00
  8.960  0.2180E+00  0.2916E+00
  8.970  0.2199E+00  0.2938E+00
  8.980  0.2217E+00  0.2960E+00
  8.990  0.2233E+00  0.2982E+00
  9.000  0.2245E+00  0.3005E+00
  9.010  0.2254E+00  0.3027E+00
  9.020  0.2264E+00  0.3050E+00
  9.030  0.2294E+00  0.3073E+00
  9.040  0.2322E+00  0.3096E+00
  9.050  0.2348E+00  0.3120E+00
  9.060  0.2373E+00  0.3143E+00
  9.070  0.2398E+00  0.3167E+00
  9.080  0.2422E+00  0.3191E+00
  9.090  0.2446E+00  0.3216E+00
  9.100  0.2469E+00  0.3241E+00
  9.110  0.2492E+00  0.3266E+00
  9.120  0.2515E+00  0.3291E+00
  9.130  0.2537E+00  0.3316E+00
  9.140  0.2557E+00  0.3342E+00
  9.150  0.2577E+00  0.3367E+00
  9.160  0.2596E+00  0.3393E+00
  9.170  0.2616E+00  0.3420E+00
  9.180  0.2643E+00  0.3446E+00
  9.190  0.2676E+00  0.3473E+00
  9.200  0.2713E+00  0.3500E+00
  9.210  0.2753E+00  0.3527E+00
  9.220  0.2797E+00  0.3555E+00
  9.230  0.2843E+00  0.3584E+00
  9.240  0.2893E+00  0.3613E+00
  9.250  0.2946E+00  0.3642E+00
  9.260  0.3002E+00  0.3672E+00
  9.270  0.3061E+00  0.3703E+00
  9.280  0.3135E+00  0.3734E+00
  9.290  0.3374E+00  0.3768E+00
  9.300  0.3459E+00  0.3802E+00
  9.310  0.3547E+00  0.3838E+00
  9.320  0.3640E+00  0.3874E+00
  9.330  0.3734E+00  0.3912E+00
  9.340  0.3803E+00  0.3950E+00
  9.350  0.4040E+00  0.3990E+00
  9.360  0.4358E+00  0.4034E+00
  9.370  0.4699E+00  0.4081E+00
  9.380  0.5084E+00  0.4132E+00
  9.390  0.5504E+00  0.4187E+00
  9.400  0.6307E+00  0.4250E+00
  9.410  0.6664E+00  0.4316E+00
  9.420  0.6162E+00  0.4378E+00
  9.430  0.6188E+00  0.4440E+00
  9.440  0.6216E+00  0.4502E+00
  9.450  0.6239E+00  0.4564E+00
  9.460  0.6263E+00  0.4627E+00
  9.470  0.6285E+00  0.4690E+00
  9.480  0.6306E+00  0.4753E+00
  9.490  0.6326E+00  0.4816E+00
  9.500  0.6345E+00  0.4880E+00
  9.510  0.6373E+00  0.4943E+00
  9.520  0.6435E+00  0.5008E+00
  9.530  0.6519E+00  0.5073E+00
  9.540  0.6653E+00  0.5139E+00
  9.550  0.6705E+00  0.5206E+00
  9.560  0.6630E+00  0.5273E+00
  9.570  0.6514E+00  0.5338E+00
  9.580  0.6415E+00  0.5402E+00
  9.590  0.6346E+00  0.5465E+00
  9.600  0.6293E+00  0.5528E+00
  9.610  0.6258E+00  0.5591E+00
  9.620  0.6245E+00  0.5653E+00
  9.630  0.6261E+00  0.5716E+00
  9.640  0.6285E+00  0.5779E+00
  9.650  0.6306E+00  0.5842E+00
  9.660  0.6325E+00  0.5905E+00
  9.670  0.6342E+00  0.5969E+00
  9.680  0.6356E+00  0.6032E+00
  9.690  0.6367E+00  0.6096E+00
  9.700  0.6376E+00  0.6160E+00
  9.710  0.6379E+00  0.6223E+00
  9.720  0.6378E+00  0.6287E+00
  9.730  0.6389E+00  0.6351E+00
  9.740  0.6438E+00  0.6415E+00
  9.750  0.6490E+00  0.6480E+00
  9.760  0.6547E+00  0.6546E+00
  9.770  0.6605E+00  0.6612E+00
  9.780  0.6617E+00  0.6678E+00
  9.790  0.6585E+00  0.6744E+00
  9.800  0.6520E+00  0.6809E+00
  9.810  0.6518E+00  0.6874E+00
  9.820  0.6470E+00  0.6939E+00
  9.830  0.6445E+00  0.7003E+00
  9.840  0.6449E+00  0.7068E+00
  9.850  0.6478E+00  0.7133E+00
  9.860  0.6523E+00  0.7198E+00
  9.870  0.6691E+00  0.7265E+00
  9.880  0.6838E+00  0.7333E+00
  9.890  0.6888E+00  0.7402E+00
  9.900  0.6915E+00  0.7471E+00
  9.910  0.6937E+00  0.7541E+00
  9.920  0.6961E+00  0.7610E+00
  9.930  0.6993E+00  0.7680E+00
  9.940  0.7071E+00  0.7751E+00
  9.950  0.7147E+00  0.7822E+00
  9.960  0.7231E+00  0.7895E+00
  9.970  0.7311E+00  0.7968E+00
  9.980  0.7398E+00  0.8042E+00
  9.990  0.7479E+00  0.8117E+00
 10.000  0.7526E+00  0.8192E+00
 10.010  0.7557E+00  0.8267E+00
 10.020  0.7567E+00  0.8343E+00
 10.030  0.7560E+00  0.8419E+00
 10.040  0.7615E+00  0.8495E+00
 10.050  0.7679E+00  0.8572E+00
 10.060  0.7745E+00  0.8649E+00
 10.070  0.7811E+00  0.8727E+00
 10.080  0.7847E+00  0.8806E+00
 10.090  0.7820E+00  0.8884E+00
 10.100  0.7795E+00  0.8962E+00
 10.110  0.7781E+00  0.9040E+00
 10.120  0.7800E+00  0.9118E+00
 10.130  0.7817E+00  0.9196E+00
 10.140  0.7807E+00  0.9274E+00
 10.150  0.7860E+00  0.9352E+00
 10.160  0.7919E+00  0.9432E+00
 10.170  0.7973E+00  0.9511E+00
 10.180  0.8002E+00  0.9591E+00
 10.190  0.8028E+00  0.9672E+00
 10.200  0.8054E+00  0.9752E+00
 10.210  0.8004E+00  0.9832E+00
 10.220  0.8020E+00  0.9912E+00
 10.230  0.8046E+00  0.9993E+00
 10.240  0.8082E+00  0.1007E+01
 10.250  0.8124E+00  0.1015E+01
 10.260  0.8168E+00  0.1024E+01
 10.270  0.8214E+00  0.1032E+01
 10.280  0.8263E+00  0.1040E+01
 10.290  0.8314E+00  0.1048E+01
 10.300  0.8370E+00  0.1057E+01
 10.310  0.8431E+00  0.1065E+01
 10.320  0.8496E+00  0.1074E+01
 10.330  0.8565E+00  0.1082E+01
 10.340  0.8623E+00  0.1091E+01
 10.350  0.8680E+00  0.1100E+01
 10.360  0.8739E+00  0.1108E+01
 10.370  0.8825E+00  0.1117E+01
 10.380  0.8917E+00  0.1126E+01
 10.390  0.9009E+00  0.1135E+01
 10.400  0.9089E+00  0.1144E+01
 10.410  0.9147E+00  0.1153E+01
 10.420  0.9200E+00  0.1163E+01
 10.430  0.9227E+00  0.1172E+01
 10.440  0.9226E+00  0.1181E+01
 10.450  0.9216E+00  0.1190E+01
 10.460  0.9183E+00  0.1199E+01
 10.470  0.9165E+00  0.1209E+01
 10.480  0.9160E+00  0.1218E+01
 10.490  0.9166E+00  0.1227E+01
 10.500  0.9182E+00  0.1236E+01
 10.510  0.9256E+00  0.1245E+01
 10.520  0.9335E+00  0.1255E+01
 10.530  0.9415E+00  0.1264E+01
 10.540  0.9495E+00  0.1274E+01
 10.550  0.9582E+00  0.1283E+01
 10.560  0.9666E+00  0.1293E+01
 10.570  0.9745E+00  0.1303E+01
 10.580  0.9820E+00  0.1312E+01
 10.590  0.9895E+00  0.1322E+01
 10.600  0.9968E+00  0.1332E+01
 10.610  0.1005E+01  0.1342E+01
 10.620  0.1013E+01  0.1352E+01
 10.630  0.1025E+01  0.1363E+01
 10.640  0.1035E+01  0.1373E+01
 10.650  0.1046E+01  0.1383E+01
 10.660  0.1062E+01  0.1394E+01
 10.670  0.1077E+01  0.1405E+01
 10.680  0.1090E+01  0.1416E+01
 10.690  0.1101E+01  0.1427E+01
 10.700  0.1112E+01  0.1438E+01
 10.710  0.1127E+01  0.1449E+01
 10.720  0.1146E+01  0.1461E+01
 10.730  0.1167E+01  0.1472E+01
 10.740  0.1198E+01  0.1484E+01
 10.750  0.1224E+01  0.1497E+01
 10.760  0.1252E+01  0.1509E+01
 10.770  0.1267E+01  0.1522E+01
 10.780  0.1253E+01  0.1534E+01
 10.790  0.1238E+01  0.1547E+01
 10.800  0.1234E+01  0.1559E+01
 10.810  0.1235E+01  0.1571E+01
 10.820  0.1243E+01  0.1584E+01
 10.830  0.1250E+01  0.1596E+01
 10.840  0.1287E+01  0.1609E+01
 10.850  0.1248E+01  0.1622E+01
 10.860  0.1232E+01  0.1634E+01
 10.870  0.1231E+01  0.1646E+01
 10.880  0.1235E+01  0.1659E+01
 10.890  0.1231E+01  0.1671E+01
 10.900  0.1230E+01  0.1683E+01
 10.910  0.1231E+01  0.1696E+01
 10.920  0.1232E+01  0.1708E+01
 10.930  0.1232E+01  0.1720E+01
 10.940  0.1230E+01  0.1732E+01
 10.950  0.1229E+01  0.1745E+01
 10.960  0.1227E+01  0.1757E+01
 10.970  0.1224E+01  0.1769E+01
 10.980  0.1218E+01  0.1781E+01
 10.990  0.1210E+01  0.1794E+01
 11.000  0.1203E+01  0.1806E+01
 11.010  0.1145E+01  0.1817E+01
 11.020  0.1075E+01  0.1828E+01
 11.030  0.1008E+01  0.1838E+01
 11.040  0.9648E+00  0.1847E+01
 11.050  0.9451E+00  0.1857E+01
 11.060  0.9261E+00  0.1866E+01
 11.070  0.9088E+00  0.1875E+01
 11.080  0.8931E+00  0.1884E+01
 11.090  0.8781E+00  0.1893E+01
 11.100  0.8704E+00  0.1902E+01
 11.110  0.8660E+00  0.1910E+01
 11.120  0.8640E+00  0.1919E+01
 11.130  0.8596E+00  0.1928E+01
 11.140  0.8374E+00  0.1936E+01
 11.150  0.8061E+00  0.1944E+01
 11.160  0.7809E+00  0.1952E+01
 11.170  0.7562E+00  0.1959E+01
 11.180  0.7298E+00  0.1967E+01
 11.190  0.7451E+00  0.1974E+01
 11.200  0.6695E+00  0.1981E+01
 11.210  0.6437E+00  0.1987E+01
 11.220  0.6225E+00  0.1994E+01
 11.230  0.6035E+00  0.2000E+01
 11.240  0.5912E+00  0.2005E+01
 11.250  0.5770E+00  0.2011E+01
 11.260  0.5641E+00  0.2017E+01
 11.270  0.5522E+00  0.2022E+01
 11.280  0.5411E+00  0.2028E+01
 11.290  0.5305E+00  0.2033E+01
 11.300  0.5208E+00  0.2038E+01
 11.310  0.5120E+00  0.2043E+01
 11.320  0.5041E+00  0.2048E+01
 11.330  0.4970E+00  0.2053E+01
 11.340  0.4908E+00  0.2058E+01
 11.350  0.4852E+00  0.2063E+01
 11.360  0.4800E+00  0.2068E+01
 11.370  0.4743E+00  0.2073E+01
 11.380  0.4679E+00  0.2077E+01
 11.390  0.4612E+00  0.2082E+01
 11.400  0.4550E+00  0.2087E+01
 11.410  0.4478E+00  0.2091E+01
 11.420  0.4425E+00  0.2095E+01
 11.430  0.4375E+00  0.2100E+01
 11.440  0.4328E+00  0.2104E+01
 11.450  0.4284E+00  0.2108E+01
 11.460  0.4242E+00  0.2113E+01
 11.470  0.4202E+00  0.2117E+01
 11.480  0.4164E+00  0.2121E+01
 11.490  0.4118E+00  0.2125E+01
 11.500  0.4021E+00  0.2129E+01
 11.510  0.3920E+00  0.2133E+01
 11.520  0.3874E+00  0.2137E+01
 11.530  0.3843E+00  0.2141E+01
 11.540  0.3817E+00  0.2145E+01
 11.550  0.3799E+00  0.2148E+01
 11.560  0.3787E+00  0.2152E+01
 11.570  0.3775E+00  0.2156E+01
 11.580  0.3730E+00  0.2160E+01
 11.590  0.3703E+00  0.2163E+01
 11.600  0.3629E+00  0.2167E+01
 11.610  0.3451E+00  0.2171E+01
 11.620  0.3385E+00  0.2174E+01
 11.630  0.3323E+00  0.2177E+01
 11.640  0.3322E+00  0.2181E+01
 11.650  0.3321E+00  0.2184E+01
 11.660  0.3307E+00  0.2187E+01
 11.670  0.3297E+00  0.2191E+01
 11.680  0.3291E+00  0.2194E+01
 11.690  0.3290E+00  0.2197E+01
 11.700  0.3289E+00  0.2200E+01
 11.710  0.3289E+00  0.2204E+01
 11.720  0.3290E+00  0.2207E+01
 11.730  0.3290E+00  0.2210E+01
 11.740  0.3291E+00  0.2214E+01
 11.750  0.3293E+00  0.2217E+01
 11.760  0.3296E+00  0.2220E+01
 11.770  0.3300E+00  0.2223E+01
 11.780  0.3328E+00  0.2227E+01
 11.790  0.3500E+00  0.2230E+01
 11.800  0.3715E+00  0.2234E+01
 11.810  0.3517E+00  0.2237E+01
 11.820  0.3340E+00  0.2241E+01
 11.830  0.3200E+00  0.2244E+01
 11.840  0.3200E+00  0.2247E+01
 11.850  0.3216E+00  0.2250E+01
 11.860  0.3233E+00  0.2254E+01
 11.870  0.3250E+00  0.2257E+01
 11.880  0.3268E+00  0.2260E+01
 11.890  0.3287E+00  0.2263E+01
 11.900  0.3306E+00  0.2267E+01
 11.910  0.3326E+00  0.2270E+01
 11.920  0.3525E+00  0.2274E+01
 11.930  0.5274E+00  0.2279E+01
 11.940  0.5983E+00  0.2285E+01
 11.950  0.7278E+00  0.2292E+01
 11.960  0.9042E+00  0.2301E+01
 11.970  0.1047E+01  0.2312E+01
 11.980  0.1210E+01  0.2324E+01
 11.990  0.1303E+01  0.2337E+01
 12.000  0.1357E+01  0.2350E+01
 12.010  0.1421E+01  0.2365E+01
 12.020  0.1486E+01  0.2379E+01
 12.030  0.1519E+01  0.2395E+01
 12.040  0.1548E+01  0.2410E+01
 12.050  0.1611E+01  0.2426E+01
 12.060  0.1664E+01  0.2443E+01
 12.070  0.1663E+01  0.2460E+01
 12.080  0.1701E+01  0.2477E+01
 12.090  0.1756E+01  0.2494E+01
 12.100  0.1818E+01  0.2512E+01
 12.110  0.1881E+01  0.2531E+01
 12.120  0.1937E+01  0.2550E+01
 12.130  0.2013E+01  0.2571E+01
 12.140  0.2068E+01  0.2591E+01
 12.150  0.2186E+01  0.2613E+01
 12.160  0.2423E+01  0.2637E+01
 12.170  0.2167E+01  0.2659E+01
 12.180  0.2134E+01  0.2680E+01
 12.190  0.2128E+01  0.2702E+01
 12.200  0.2162E+01  0.2723E+01
 12.210  0.2297E+01  0.2746E+01
 12.220  0.2384E+01  0.2770E+01
 12.230  0.2477E+01  0.2795E+01
 12.240  0.2465E+01  0.2819E+01
 12.250  0.2411E+01  0.2844E+01
 12.260  0.2412E+01  0.2868E+01
 12.270  0.2403E+01  0.2892E+01
 12.280  0.2373E+01  0.2915E+01
 12.290  0.2343E+01  0.2939E+01
 12.300  0.2303E+01  0.2962E+01
 12.310  0.2284E+01  0.2985E+01
 12.320  0.2229E+01  0.3007E+01
 12.330  0.2182E+01  0.3029E+01
 12.340  0.2162E+01  0.3050E+01
 12.350  0.2075E+01  0.3071E+01
 12.360  0.1908E+01  0.3090E+01
 12.370  0.1847E+01  0.3109E+01
 12.380  0.1801E+01  0.3127E+01
 12.390  0.1759E+01  0.3144E+01
 12.400  0.1719E+01  0.3162E+01
 12.410  0.1690E+01  0.3178E+01
 12.420  0.1668E+01  0.3195E+01
 12.430  0.1640E+01  0.3212E+01
 12.440  0.1612E+01  0.3228E+01
 12.450  0.1589E+01  0.3244E+01
 12.460  0.1565E+01  0.3259E+01
 12.470  0.1543E+01  0.3275E+01
 12.480  0.1514E+01  0.3290E+01
 12.490  0.1478E+01  0.3305E+01
 12.500  0.1443E+01  0.3319E+01
 12.510  0.1413E+01  0.3333E+01
 12.520  0.1386E+01  0.3347E+01
 12.530  0.1365E+01  0.3361E+01
 12.540  0.1348E+01  0.3374E+01
 12.550  0.1335E+01  0.3387E+01
 12.560  0.1328E+01  0.3401E+01
 12.570  0.1316E+01  0.3414E+01
 12.580  0.1301E+01  0.3427E+01
 12.590  0.1285E+01  0.3440E+01
 12.600  0.1272E+01  0.3452E+01
 12.610  0.1260E+01  0.3465E+01
 12.620  0.1248E+01  0.3478E+01
 12.630  0.1233E+01  0.3490E+01
 12.640  0.1218E+01  0.3502E+01
 12.650  0.1203E+01  0.3514E+01
 12.660  0.1189E+01  0.3526E+01
 12.670  0.1191E+01  0.3538E+01
 12.680  0.1168E+01  0.3550E+01
 12.690  0.1150E+01  0.3561E+01
 12.700  0.1137E+01  0.3572E+01
 12.710  0.1128E+01  0.3584E+01
 12.720  0.1125E+01  0.3595E+01
 12.730  0.1121E+01  0.3606E+01
 12.740  0.1131E+01  0.3618E+01
 12.750  0.1127E+01  0.3629E+01
 12.760  0.1120E+01  0.3640E+01
 12.770  0.1117E+01  0.3651E+01
 12.780  0.1117E+01  0.3662E+01
 12.790  0.1109E+01  0.3673E+01
 12.800  0.1101E+01  0.3684E+01
 12.810  0.1095E+01  0.3695E+01
 12.820  0.1090E+01  0.3706E+01
 12.830  0.1087E+01  0.3717E+01
 12.840  0.1086E+01  0.3728E+01
 12.850  0.1090E+01  0.3739E+01
 12.860  0.1096E+01  0.3750E+01
 12.870  0.1104E+01  0.3761E+01
 12.880  0.1108E+01  0.3772E+01
 12.890  0.1108E+01  0.3783E+01
 12.900  0.1104E+01  0.3794E+01
 12.910  0.1143E+01  0.3806E+01
 12.920  0.1152E+01  0.3817E+01
 12.930  0.1110E+01  0.3828E+01
 12.940  0.1107E+01  0.3839E+01
 12.950  0.1039E+01  0.3850E+01
 12.960  0.1023E+01  0.3860E+01
 12.970  0.1018E+01  0.3870E+01
 12.980  0.1032E+01  0.3880E+01
 12.990  0.1016E+01  0.3891E+01
 13.000  0.1024E+01  0.3901E+01
 13.010  0.1034E+01  0.3911E+01
 13.020  0.1047E+01  0.3922E+01
 13.030  0.1062E+01  0.3932E+01
 13.040  0.1075E+01  0.3943E+01
 13.050  0.1074E+01  0.3954E+01
 13.060  0.1087E+01  0.3965E+01
 13.070  0.1102E+01  0.3976E+01
 13.080  0.1122E+01  0.3987E+01
 13.090  0.1144E+01  0.3998E+01
 13.100  0.1177E+01  0.4010E+01
 13.110  0.1176E+01  0.4022E+01
 13.120  0.1189E+01  0.4034E+01
 13.130  0.1200E+01  0.4046E+01
 13.140  0.1217E+01  0.4058E+01
 13.150  0.1226E+01  0.4070E+01
 13.160  0.1234E+01  0.4082E+01
 13.170  0.1245E+01  0.4095E+01
 13.180  0.1261E+01  0.4107E+01
 13.190  0.1280E+01  0.4120E+01
 13.200  0.1284E+01  0.4133E+01
 13.210  0.1284E+01  0.4146E+01
 13.220  0.1278E+01  0.4159E+01
 13.230  0.1284E+01  0.4172E+01
 13.240  0.1305E+01  0.4185E+01
 13.250  0.1329E+01  0.4198E+01
 13.260  0.1353E+01  0.4211E+01
 13.270  0.1377E+01  0.4225E+01
 13.280  0.1400E+01  0.4239E+01
 13.290  0.1431E+01  0.4254E+01
 13.300  0.1466E+01  0.4268E+01
 13.310  0.1502E+01  0.4283E+01
 13.320  0.1538E+01  0.4299E+01
 13.330  0.1583E+01  0.4314E+01
 13.340  0.1666E+01  0.4331E+01
 13.350  0.1757E+01  0.4349E+01
 13.360  0.1819E+01  0.4367E+01
 13.370  0.1868E+01  0.4385E+01
 13.380  0.1953E+01  0.4405E+01
 13.390  0.1979E+01  0.4425E+01
 13.400  0.2008E+01  0.4445E+01
 13.410  0.2043E+01  0.4465E+01
 13.420  0.2052E+01  0.4486E+01
 13.430  0.2050E+01  0.4506E+01
 13.440  0.2063E+01  0.4527E+01
 13.450  0.2108E+01  0.4548E+01
 13.460  0.2151E+01  0.4570E+01
 13.470  0.2188E+01  0.4591E+01
 13.480  0.2197E+01  0.4613E+01
 13.490  0.2156E+01  0.4635E+01
 13.500  0.2122E+01  0.4656E+01
 13.510  0.2088E+01  0.4677E+01
 13.520  0.2055E+01  0.4698E+01
 13.530  0.2003E+01  0.4718E+01
 13.540  0.1955E+01  0.4737E+01
 13.550  0.1916E+01  0.4756E+01
 13.560  0.1876E+01  0.4775E+01
 13.570  0.1855E+01  0.4794E+01
 13.580  0.1848E+01  0.4812E+01
 13.590  0.1923E+01  0.4831E+01
 13.600  0.1760E+01  0.4849E+01
 13.610  0.1712E+01  0.4866E+01
 13.620  0.1670E+01  0.4883E+01
 13.630  0.1633E+01  0.4899E+01
 13.640  0.1597E+01  0.4915E+01
 13.650  0.1563E+01  0.4931E+01
 13.660  0.1530E+01  0.4946E+01
 13.670  0.1497E+01  0.4961E+01
 13.680  0.1465E+01  0.4976E+01
 13.690  0.1434E+01  0.4990E+01
 13.700  0.1404E+01  0.5004E+01
 13.710  0.1380E+01  0.5018E+01
 13.720  0.1360E+01  0.5031E+01
 13.730  0.1342E+01  0.5045E+01
 13.740  0.1332E+01  0.5058E+01
 13.750  0.1331E+01  0.5071E+01
 13.760  0.1323E+01  0.5085E+01
 13.770  0.1300E+01  0.5098E+01
 13.780  0.1281E+01  0.5111E+01
 13.790  0.1274E+01  0.5123E+01
 13.800  0.1256E+01  0.5136E+01
 13.810  0.1237E+01  0.5148E+01
 13.820  0.1217E+01  0.5160E+01
 13.830  0.1199E+01  0.5172E+01
 13.840  0.1184E+01  0.5184E+01
 13.850  0.1170E+01  0.5196E+01
 13.860  0.1159E+01  0.5207E+01
 13.870  0.1145E+01  0.5219E+01
 13.880  0.1131E+01  0.5230E+01
 13.890  0.1118E+01  0.5241E+01
 13.900  0.1105E+01  0.5252E+01
 13.910  0.1092E+01  0.5263E+01
 13.920  0.1088E+01  0.5274E+01
 13.930  0.1094E+01  0.5285E+01
 13.940  0.1086E+01  0.5296E+01
 13.950  0.1059E+01  0.5307E+01
 13.960  0.1043E+01  0.5317E+01
 13.970  0.1036E+01  0.5327E+01
 13.980  0.1029E+01  0.5338E+01
 13.990  0.1022E+01  0.5348E+01
 14.000  0.1013E+01  0.5358E+01
 14.010  0.9972E+00  0.5368E+01
 14.020  0.9745E+00  0.5378E+01
 14.030  0.9484E+00  0.5387E+01
 14.040  0.9369E+00  0.5397E+01
 14.050  0.9287E+00  0.5406E+01
 14.060  0.9578E+00  0.5416E+01
 14.070  0.9809E+00  0.5425E+01
 14.080  0.9513E+00  0.5435E+01
 14.090  0.9051E+00  0.5444E+01
 14.100  0.8605E+00  0.5452E+01
 14.110  0.8171E+00  0.5461E+01
 14.120  0.7762E+00  0.5468E+01
 14.130  0.7557E+00  0.5476E+01
 14.140  0.7667E+00  0.5484E+01
 14.150  0.7728E+00  0.5491E+01
 14.160  0.6891E+00  0.5498E+01
 14.170  0.6265E+00  0.5505E+01
 14.180  0.6054E+00  0.5511E+01
 14.190  0.5914E+00  0.5516E+01
 14.200  0.5354E+00  0.5522E+01
 14.210  0.5137E+00  0.5527E+01
 14.220  0.5029E+00  0.5532E+01
 14.230  0.4937E+00  0.5537E+01
 14.240  0.4852E+00  0.5542E+01
 14.250  0.4776E+00  0.5547E+01
 14.260  0.4714E+00  0.5551E+01
 14.270  0.4665E+00  0.5556E+01
 14.280  0.4622E+00  0.5561E+01
 14.290  0.4715E+00  0.5565E+01
 14.300  0.4652E+00  0.5570E+01
 14.310  0.4593E+00  0.5575E+01
 14.320  0.4538E+00  0.5579E+01
 14.330  0.4489E+00  0.5584E+01
 14.340  0.4445E+00  0.5588E+01
 14.350  0.4403E+00  0.5592E+01
 14.360  0.4362E+00  0.5597E+01
 14.370  0.4319E+00  0.5601E+01
 14.380  0.4279E+00  0.5605E+01
 14.390  0.4242E+00  0.5610E+01
 14.400  0.4206E+00  0.5614E+01
 14.410  0.4171E+00  0.5618E+01
 14.420  0.4138E+00  0.5622E+01
 14.430  0.4107E+00  0.5626E+01
 14.440  0.4077E+00  0.5630E+01
 14.450  0.4050E+00  0.5634E+01
 14.460  0.4113E+00  0.5638E+01
 14.470  0.4169E+00  0.5643E+01
 14.480  0.4175E+00  0.5647E+01
 14.490  0.4131E+00  0.5651E+01
 14.500  0.4032E+00  0.5655E+01
 14.510  0.3954E+00  0.5659E+01
 14.520  0.3908E+00  0.5663E+01
 14.530  0.3877E+00  0.5667E+01
 14.540  0.3847E+00  0.5671E+01
 14.550  0.3815E+00  0.5674E+01
 14.560  0.3783E+00  0.5678E+01
 14.570  0.3748E+00  0.5682E+01
 14.580  0.3717E+00  0.5686E+01
 14.590  0.3686E+00  0.5689E+01
 14.600  0.3657E+00  0.5693E+01
 14.610  0.3630E+00  0.5697E+01
 14.620  0.3607E+00  0.5700E+01
 14.630  0.3587E+00  0.5704E+01
 14.640  0.3580E+00  0.5707E+01
 14.650  0.3589E+00  0.5711E+01
 14.660  0.3597E+00  0.5715E+01
 14.670  0.3605E+00  0.5718E+01
 14.680  0.3613E+00  0.5722E+01
 14.690  0.3620E+00  0.5725E+01
 14.700  0.3628E+00  0.5729E+01
 14.710  0.3634E+00  0.5733E+01
 14.720  0.3630E+00  0.5736E+01
 14.730  0.3639E+00  0.5740E+01
 14.740  0.3672E+00  0.5744E+01
 14.750  0.3710E+00  0.5747E+01
 14.760  0.3766E+00  0.5751E+01
 14.770  0.3818E+00  0.5755E+01
 14.780  0.3852E+00  0.5759E+01
 14.790  0.3872E+00  0.5763E+01
 14.800  0.3878E+00  0.5767E+01
 14.810  0.3867E+00  0.5770E+01
 14.820  0.3841E+00  0.5774E+01
 14.830  0.3779E+00  0.5778E+01
 14.840  0.3724E+00  0.5782E+01
 14.850  0.3679E+00  0.5785E+01
 14.860  0.3641E+00  0.5789E+01
 14.870  0.3613E+00  0.5793E+01
 14.880  0.3592E+00  0.5796E+01
 14.890  0.3577E+00  0.5800E+01
 14.900  0.3568E+00  0.5803E+01
 14.910  0.3555E+00  0.5807E+01
 14.920  0.3533E+00  0.5810E+01
 14.930  0.3507E+00  0.5814E+01
 14.940  0.3494E+00  0.5817E+01
 14.950  0.3485E+00  0.5821E+01
 14.960  0.3479E+00  0.5824E+01
 14.970  0.3476E+00  0.5828E+01
 14.980  0.3490E+00  0.5831E+01
 14.990  0.3524E+00  0.5835E+01
 15.000  0.3567E+00  0.5839E+01
 15.010  0.3586E+00  0.5842E+01
 15.020  0.3604E+00  0.5846E+01
 15.030  0.3623E+00  0.5849E+01
 15.040  0.3641E+00  0.5853E+01
 15.050  0.3637E+00  0.5857E+01
 15.060  0.3635E+00  0.5860E+01
 15.070  0.3634E+00  0.5864E+01
 15.080  0.3634E+00  0.5867E+01
 15.090  0.3635E+00  0.5871E+01
 15.100  0.3638E+00  0.5875E+01
 15.110  0.3636E+00  0.5878E+01
 15.120  0.3634E+00  0.5882E+01
 15.130  0.3637E+00  0.5886E+01
 15.140  0.3644E+00  0.5889E+01
 15.150  0.3657E+00  0.5893E+01
 15.160  0.3675E+00  0.5897E+01
 15.170  0.3694E+00  0.5900E+01
 15.180  0.3713E+00  0.5904E+01
 15.190  0.3714E+00  0.5908E+01
 15.200  0.3720E+00  0.5911E+01
 15.210  0.3735E+00  0.5915E+01
 15.220  0.3753E+00  0.5919E+01
 15.230  0.3772E+00  0.5923E+01
 15.240  0.3778E+00  0.5927E+01
 15.250  0.3782E+00  0.5930E+01
 15.260  0.3847E+00  0.5934E+01
 15.270  0.3817E+00  0.5938E+01
 15.280  0.3778E+00  0.5942E+01
 15.290  0.3754E+00  0.5946E+01
 15.300  0.3745E+00  0.5949E+01
 15.310  0.3750E+00  0.5953E+01
 15.320  0.3771E+00  0.5957E+01
 15.330  0.3796E+00  0.5961E+01
 15.340  0.3823E+00  0.5964E+01
 15.350  0.3852E+00  0.5968E+01
 15.360  0.3908E+00  0.5972E+01
 15.370  0.3927E+00  0.5976E+01
 15.380  0.3923E+00  0.5980E+01
 15.390  0.3908E+00  0.5984E+01
 15.400  0.3894E+00  0.5988E+01
 15.410  0.3891E+00  0.5992E+01
 15.420  0.3899E+00  0.5996E+01
 15.430  0.3917E+00  0.6000E+01
 15.440  0.3945E+00  0.6003E+01
 15.450  0.3971E+00  0.6007E+01
 15.460  0.3939E+00  0.6011E+01
 15.470  0.3947E+00  0.6015E+01
 15.480  0.3986E+00  0.6019E+01
 15.490  0.4032E+00  0.6023E+01
 15.500  0.4086E+00  0.6027E+01
 15.510  0.4130E+00  0.6032E+01
 15.520  0.4142E+00  0.6036E+01
 15.530  0.4171E+00  0.6040E+01
 15.540  0.4227E+00  0.6044E+01
 15.550  0.4303E+00  0.6048E+01
 15.560  0.4388E+00  0.6053E+01
 15.570  0.4479E+00  0.6057E+01
 15.580  0.4578E+00  0.6062E+01
 15.590  0.4684E+00  0.6067E+01
 15.600  0.4797E+00  0.6071E+01
 15.610  0.4918E+00  0.6076E+01
 15.620  0.5080E+00  0.6081E+01
 15.630  0.5307E+00  0.6087E+01
 15.640  0.5597E+00  0.6092E+01
 15.650  0.5949E+00  0.6098E+01
 15.660  0.6190E+00  0.6104E+01
 15.670  0.6415E+00  0.6111E+01
 15.680  0.6644E+00  0.6117E+01
 15.690  0.6990E+00  0.6124E+01
 15.700  0.7126E+00  0.6132E+01
 15.710  0.7130E+00  0.6139E+01
 15.720  0.7110E+00  0.6146E+01
 15.730  0.7104E+00  0.6153E+01
 15.740  0.7073E+00  0.6160E+01
 15.750  0.6991E+00  0.6167E+01
 15.760  0.6934E+00  0.6174E+01
 15.770  0.6932E+00  0.6181E+01
 15.780  0.6920E+00  0.6188E+01
 15.790  0.6902E+00  0.6195E+01
 15.800  0.6880E+00  0.6202E+01
 15.810  0.6861E+00  0.6208E+01
 15.820  0.6846E+00  0.6215E+01
 15.830  0.6823E+00  0.6222E+01
 15.840  0.6793E+00  0.6229E+01
 15.850  0.6784E+00  0.6236E+01
 15.860  0.6801E+00  0.6242E+01
 15.870  0.6824E+00  0.6249E+01
 15.880  0.6848E+00  0.6256E+01
 15.890  0.6866E+00  0.6263E+01
 15.900  0.6885E+00  0.6270E+01
 15.910  0.6914E+00  0.6277E+01
 15.920  0.6945E+00  0.6284E+01
 15.930  0.6978E+00  0.6291E+01
 15.940  0.7010E+00  0.6298E+01
 15.950  0.7033E+00  0.6305E+01
 15.960  0.7051E+00  0.6312E+01
 15.970  0.7078E+00  0.6319E+01
 15.980  0.7108E+00  0.6326E+01
 15.990  0.7139E+00  0.6333E+01
 16.000  0.7173E+00  0.6340E+01
 16.010  0.7209E+00  0.6347E+01
 16.020  0.7251E+00  0.6355E+01
 16.030  0.7185E+00  0.6362E+01
 16.040  0.7242E+00  0.6369E+01
 16.050  0.7299E+00  0.6376E+01
 16.060  0.7377E+00  0.6384E+01
 16.070  0.7511E+00  0.6391E+01
 16.080  0.7704E+00  0.6399E+01
 16.090  0.7836E+00  0.6407E+01
 16.100  0.7995E+00  0.6415E+01
 16.110  0.7910E+00  0.6423E+01
 16.120  0.7526E+00  0.6430E+01
 16.130  0.7478E+00  0.6438E+01
 16.140  0.7505E+00  0.6445E+01
 16.150  0.7534E+00  0.6453E+01
 16.160  0.7564E+00  0.6460E+01
 16.170  0.7586E+00  0.6468E+01
 16.180  0.7597E+00  0.6476E+01
 16.190  0.7611E+00  0.6483E+01
 16.200  0.7627E+00  0.6491E+01
 16.210  0.7640E+00  0.6498E+01
 16.220  0.7654E+00  0.6506E+01
 16.230  0.7671E+00  0.6514E+01
 16.240  0.7689E+00  0.6521E+01
 16.250  0.7708E+00  0.6529E+01
 16.260  0.7729E+00  0.6537E+01
 16.270  0.7753E+00  0.6545E+01
 16.280  0.7780E+00  0.6552E+01
 16.290  0.7810E+00  0.6560E+01
 16.300  0.7840E+00  0.6568E+01
 16.310  0.7872E+00  0.6576E+01
 16.320  0.7944E+00  0.6584E+01
 16.330  0.8023E+00  0.6592E+01
 16.340  0.8101E+00  0.6600E+01
 16.350  0.8179E+00  0.6608E+01
 16.360  0.8247E+00  0.6616E+01
 16.370  0.8281E+00  0.6625E+01
 16.380  0.8257E+00  0.6633E+01
 16.390  0.8243E+00  0.6641E+01
 16.400  0.8254E+00  0.6649E+01
 16.410  0.8291E+00  0.6658E+01
 16.420  0.8364E+00  0.6666E+01
 16.430  0.8414E+00  0.6675E+01
 16.440  0.8458E+00  0.6683E+01
 16.450  0.8503E+00  0.6692E+01
 16.460  0.8551E+00  0.6700E+01
 16.470  0.8603E+00  0.6709E+01
 16.480  0.8638E+00  0.6717E+01
 16.490  0.8653E+00  0.6726E+01
 16.500  0.8705E+00  0.6735E+01
 16.510  0.8745E+00  0.6743E+01
 16.520  0.8786E+00  0.6752E+01
 16.530  0.8820E+00  0.6761E+01
 16.540  0.8849E+00  0.6770E+01
 16.550  0.8875E+00  0.6779E+01
 16.560  0.8894E+00  0.6788E+01
 16.570  0.8915E+00  0.6797E+01
 16.580  0.8942E+00  0.6805E+01
 16.590  0.8977E+00  0.6814E+01
 16.600  0.9028E+00  0.6824E+01
 16.610  0.9090E+00  0.6833E+01
 16.620  0.9157E+00  0.6842E+01
 16.630  0.9228E+00  0.6851E+01
 16.640  0.9300E+00  0.6860E+01
 16.650  0.9371E+00  0.6870E+01
 16.660  0.9439E+00  0.6879E+01
 16.670  0.9505E+00  0.6889E+01
 16.680  0.9569E+00  0.6898E+01
 16.690  0.9627E+00  0.6908E+01
 16.700  0.9725E+00  0.6918E+01
 16.710  0.9969E+00  0.6927E+01
 16.720  0.1044E+01  0.6938E+01
 16.730  0.1047E+01  0.6948E+01
 16.740  0.9857E+00  0.6958E+01
 16.750  0.9936E+00  0.6968E+01
 16.760  0.1001E+01  0.6978E+01
 16.770  0.1007E+01  0.6988E+01
 16.780  0.1012E+01  0.6998E+01
 16.790  0.1017E+01  0.7009E+01
 16.800  0.1021E+01  0.7019E+01
 16.810  0.1024E+01  0.7029E+01
 16.820  0.1027E+01  0.7039E+01
 16.830  0.1029E+01  0.7050E+01
 16.840  0.1033E+01  0.7060E+01
 16.850  0.1037E+01  0.7070E+01
 16.860  0.1050E+01  0.7081E+01
 16.870  0.1060E+01  0.7091E+01
 16.880  0.1070E+01  0.7102E+01
 16.890  0.1093E+01  0.7113E+01
 16.900  0.1118E+01  0.7124E+01
 16.910  0.1119E+01  0.7135E+01
 16.920  0.1096E+01  0.7146E+01
 16.930  0.1084E+01  0.7157E+01
 16.940  0.1091E+01  0.7168E+01
 16.950  0.1098E+01  0.7179E+01
 16.960  0.1103E+01  0.7190E+01
 16.970  0.1106E+01  0.7201E+01
 16.980  0.1112E+01  0.7212E+01
 16.990  0.1125E+01  0.7224E+01
 17.000  0.1160E+01  0.7235E+01
 17.010  0.1139E+01  0.7247E+01
 17.020  0.1127E+01  0.7258E+01
 17.030  0.1131E+01  0.7269E+01
 17.040  0.1139E+01  0.7280E+01
 17.050  0.1152E+01  0.7292E+01
 17.060  0.1144E+01  0.7303E+01
 17.070  0.1146E+01  0.7315E+01
 17.080  0.1148E+01  0.7326E+01
 17.090  0.1151E+01  0.7338E+01
 17.100  0.1144E+01  0.7349E+01
 17.110  0.1134E+01  0.7361E+01
 17.120  0.1137E+01  0.7372E+01
 17.130  0.1146E+01  0.7383E+01
 17.140  0.1133E+01  0.7395E+01
 17.150  0.1132E+01  0.7406E+01
 17.160  0.1128E+01  0.7417E+01
 17.170  0.1121E+01  0.7429E+01
 17.180  0.1119E+01  0.7440E+01
 17.190  0.1118E+01  0.7451E+01
 17.200  0.1117E+01  0.7462E+01
 17.210  0.1116E+01  0.7473E+01
 17.220  0.1117E+01  0.7484E+01
 17.230  0.1118E+01  0.7496E+01
 17.240  0.1120E+01  0.7507E+01
 17.250  0.1121E+01  0.7518E+01
 17.260  0.1118E+01  0.7529E+01
 17.270  0.1118E+01  0.7540E+01
 17.280  0.1118E+01  0.7552E+01
 17.290  0.1120E+01  0.7563E+01
 17.300  0.1119E+01  0.7574E+01
 17.310  0.1119E+01  0.7585E+01
 17.320  0.1120E+01  0.7596E+01
 17.330  0.1128E+01  0.7608E+01
 17.340  0.1141E+01  0.7619E+01
 17.350  0.1153E+01  0.7631E+01
 17.360  0.1154E+01  0.7642E+01
 17.370  0.1138E+01  0.7654E+01
 17.380  0.1130E+01  0.7665E+01
 17.390  0.1140E+01  0.7676E+01
 17.400  0.1160E+01  0.7688E+01
 17.410  0.1175E+01  0.7700E+01
 17.420  0.1187E+01  0.7711E+01
 17.430  0.1191E+01  0.7723E+01
 17.440  0.1198E+01  0.7735E+01
 17.450  0.1203E+01  0.7747E+01
 17.460  0.1202E+01  0.7759E+01
 17.470  0.1196E+01  0.7771E+01
 17.480  0.1184E+01  0.7783E+01
 17.490  0.1195E+01  0.7795E+01
 17.500  0.1208E+01  0.7807E+01
 17.510  0.1216E+01  0.7819E+01
 17.520  0.1239E+01  0.7832E+01
 17.530  0.1244E+01  0.7844E+01
 17.540  0.1234E+01  0.7857E+01
 17.550  0.1221E+01  0.7869E+01
 17.560  0.1193E+01  0.7881E+01
 17.570  0.1162E+01  0.7892E+01
 17.580  0.1140E+01  0.7904E+01
 17.590  0.1129E+01  0.7915E+01
 17.600  0.1113E+01  0.7926E+01
 17.610  0.1130E+01  0.7937E+01
 17.620  0.1303E+01  0.7950E+01
 17.630  0.1214E+01  0.7963E+01
 17.640  0.1201E+01  0.7975E+01
 17.650  0.1215E+01  0.7987E+01
 17.660  0.1200E+01  0.7999E+01
 17.670  0.1188E+01  0.8011E+01
 17.680  0.1182E+01  0.8022E+01
 17.690  0.1180E+01  0.8034E+01
 17.700  0.1174E+01  0.8046E+01
 17.710  0.1164E+01  0.8058E+01
 17.720  0.1154E+01  0.8069E+01
 17.730  0.1147E+01  0.8081E+01
 17.740  0.1147E+01  0.8092E+01
 17.750  0.1144E+01  0.8104E+01
 17.760  0.1140E+01  0.8115E+01
 17.770  0.1135E+01  0.8126E+01
 17.780  0.1138E+01  0.8138E+01
 17.790  0.1134E+01  0.8149E+01
 17.800  0.1129E+01  0.8160E+01
 17.810  0.1127E+01  0.8172E+01
 17.820  0.1131E+01  0.8183E+01
 17.830  0.1137E+01  0.8194E+01
 17.840  0.1145E+01  0.8206E+01
 17.850  0.1136E+01  0.8217E+01
 17.860  0.1125E+01  0.8228E+01
 17.870  0.1109E+01  0.8239E+01
 17.880  0.1104E+01  0.8250E+01
 17.890  0.1116E+01  0.8262E+01
 17.900  0.1111E+01  0.8273E+01
 17.910  0.1113E+01  0.8284E+01
 17.920  0.1114E+01  0.8295E+01
 17.930  0.1122E+01  0.8306E+01
 17.940  0.1137E+01  0.8318E+01
 17.950  0.1145E+01  0.8329E+01
 17.960  0.1149E+01  0.8341E+01
 17.970  0.1137E+01  0.8352E+01
 17.980  0.1139E+01  0.8363E+01
 17.990  0.1140E+01  0.8375E+01
 18.000  0.1141E+01  0.8386E+01
 18.010  0.1141E+01  0.8398E+01
 18.020  0.1143E+01  0.8409E+01
 18.030  0.1152E+01  0.8420E+01
 18.040  0.1164E+01  0.8432E+01
 18.050  0.1175E+01  0.8444E+01
 18.060  0.1190E+01  0.8456E+01
 18.070  0.1205E+01  0.8468E+01
 18.080  0.1258E+01  0.8480E+01
 18.090  0.1257E+01  0.8493E+01
 18.100  0.1268E+01  0.8506E+01
 18.110  0.1263E+01  0.8518E+01
 18.120  0.1246E+01  0.8531E+01
 18.130  0.1254E+01  0.8543E+01
 18.140  0.1268E+01  0.8556E+01
 18.150  0.1283E+01  0.8569E+01
 18.160  0.1299E+01  0.8582E+01
 18.170  0.1325E+01  0.8595E+01
 18.180  0.1344E+01  0.8608E+01
 18.190  0.1362E+01  0.8622E+01
 18.200  0.1385E+01  0.8636E+01
 18.210  0.1396E+01  0.8650E+01
 18.220  0.1394E+01  0.8664E+01
 18.230  0.1458E+01  0.8678E+01
 18.240  0.1420E+01  0.8693E+01
 18.250  0.1506E+01  0.8708E+01
 18.260  0.1474E+01  0.8722E+01
 18.270  0.1506E+01  0.8737E+01
 18.280  0.1543E+01  0.8753E+01
 18.290  0.1585E+01  0.8769E+01
 18.300  0.1635E+01  0.8785E+01
 18.310  0.1697E+01  0.8802E+01
 18.320  0.1771E+01  0.8820E+01
 18.330  0.1823E+01  0.8838E+01
 18.340  0.1849E+01  0.8857E+01
 18.350  0.1975E+01  0.8876E+01
 18.360  0.2027E+01  0.8897E+01
 18.370  0.2156E+01  0.8918E+01
 18.380  0.2312E+01  0.8941E+01
 18.390  0.2458E+01  0.8966E+01
 18.400  0.2705E+01  0.8993E+01
 18.410  0.3022E+01  0.9023E+01
 18.420  0.3283E+01  0.9056E+01
 18.430  0.3602E+01  0.9092E+01
 18.440  0.3557E+01  0.9127E+01
 18.450  0.3495E+01  0.9162E+01
 18.460  0.3362E+01  0.9196E+01
 18.470  0.3525E+01  0.9231E+01
 18.480  0.3328E+01  0.9265E+01
 18.490  0.3350E+01  0.9298E+01
 18.500  0.3335E+01  0.9331E+01
 18.510  0.3443E+01  0.9366E+01
 18.520  0.3426E+01  0.9400E+01
 18.530  0.2845E+01  0.9429E+01
 18.540  0.2570E+01  0.9454E+01
 18.550  0.2591E+01  0.9480E+01
 18.560  0.2023E+01  0.9500E+01
 18.570  0.1885E+01  0.9519E+01
 18.580  0.1581E+01  0.9535E+01
 18.590  0.1516E+01  0.9550E+01
 18.600  0.1451E+01  0.9565E+01
 18.610  0.1418E+01  0.9579E+01
 18.620  0.1407E+01  0.9593E+01
 18.630  0.1364E+01  0.9607E+01
 18.640  0.1339E+01  0.9620E+01
 18.650  0.1301E+01  0.9633E+01
 18.660  0.1270E+01  0.9646E+01
 18.670  0.1230E+01  0.9658E+01
 18.680  0.1198E+01  0.9670E+01
 18.690  0.1174E+01  0.9682E+01
 18.700  0.1158E+01  0.9693E+01
 18.710  0.1134E+01  0.9705E+01
 18.720  0.1103E+01  0.9716E+01
 18.730  0.1089E+01  0.9727E+01
 18.740  0.1081E+01  0.9737E+01
 18.750  0.1077E+01  0.9748E+01
 18.760  0.1074E+01  0.9759E+01
 18.770  0.1071E+01  0.9770E+01
 18.780  0.1071E+01  0.9780E+01
 18.790  0.1075E+01  0.9791E+01
 18.800  0.1082E+01  0.9802E+01
 18.810  0.1096E+01  0.9813E+01
 18.820  0.1118E+01  0.9824E+01
 18.830  0.1125E+01  0.9835E+01
 18.840  0.1063E+01  0.9846E+01
 18.850  0.9999E+00  0.9856E+01
 18.860  0.9681E+00  0.9866E+01
 18.870  0.9465E+00  0.9875E+01
 18.880  0.9272E+00  0.9884E+01
 18.890  0.9116E+00  0.9893E+01
 18.900  0.8985E+00  0.9902E+01
 18.910  0.8859E+00  0.9911E+01
 18.920  0.8741E+00  0.9920E+01
 18.930  0.8636E+00  0.9929E+01
 18.940  0.8566E+00  0.9937E+01
 18.950  0.8539E+00  0.9946E+01
 18.960  0.8488E+00  0.9954E+01
 18.970  0.8406E+00  0.9963E+01
 18.980  0.8274E+00  0.9971E+01
 18.990  0.8135E+00  0.9979E+01
 19.000  0.8024E+00  0.9987E+01
 19.010  0.7903E+00  0.9995E+01
 19.020  0.7782E+00  0.1000E+02
 19.030  0.7662E+00  0.1001E+02
 19.040  0.7569E+00  0.1002E+02
 19.050  0.7491E+00  0.1003E+02
 19.060  0.7417E+00  0.1003E+02
 19.070  0.7336E+00  0.1004E+02
 19.080  0.7251E+00  0.1005E+02
 19.090  0.7174E+00  0.1005E+02
 19.100  0.7095E+00  0.1006E+02
 19.110  0.7016E+00  0.1007E+02
 19.120  0.6951E+00  0.1008E+02
 19.130  0.6886E+00  0.1008E+02
 19.140  0.6920E+00  0.1009E+02
 19.150  0.6875E+00  0.1010E+02
 19.160  0.6829E+00  0.1010E+02
 19.170  0.6778E+00  0.1011E+02
 19.180  0.6728E+00  0.1012E+02
 19.190  0.6678E+00  0.1012E+02
 19.200  0.6631E+00  0.1013E+02
 19.210  0.6585E+00  0.1014E+02
 19.220  0.6497E+00  0.1014E+02
 19.230  0.6479E+00  0.1015E+02
 19.240  0.6667E+00  0.1016E+02
 19.250  0.6534E+00  0.1016E+02
 19.260  0.6421E+00  0.1017E+02
 19.270  0.6350E+00  0.1018E+02
 19.280  0.6296E+00  0.1018E+02
 19.290  0.6253E+00  0.1019E+02
 19.300  0.6211E+00  0.1019E+02
 19.310  0.6151E+00  0.1020E+02
 19.320  0.6071E+00  0.1021E+02
 19.330  0.5978E+00  0.1021E+02
 19.340  0.5894E+00  0.1022E+02
 19.350  0.5853E+00  0.1022E+02
 19.360  0.5815E+00  0.1023E+02
 19.370  0.5777E+00  0.1024E+02
 19.380  0.5739E+00  0.1024E+02
 19.390  0.5702E+00  0.1025E+02
 19.400  0.5666E+00  0.1025E+02
 19.410  0.5631E+00  0.1026E+02
 19.420  0.5593E+00  0.1026E+02
 19.430  0.5691E+00  0.1027E+02
 19.440  0.5620E+00  0.1028E+02
 19.450  0.5559E+00  0.1028E+02
 19.460  0.5504E+00  0.1029E+02
 19.470  0.5459E+00  0.1029E+02
 19.480  0.5419E+00  0.1030E+02
 19.490  0.5385E+00  0.1030E+02
 19.500  0.5358E+00  0.1031E+02
 19.510  0.5335E+00  0.1031E+02
 19.520  0.5314E+00  0.1032E+02
 19.530  0.5294E+00  0.1032E+02
 19.540  0.5276E+00  0.1033E+02
 19.550  0.5259E+00  0.1033E+02
 19.560  0.5238E+00  0.1034E+02
 19.570  0.5216E+00  0.1035E+02
 19.580  0.5191E+00  0.1035E+02
 19.590  0.5168E+00  0.1036E+02
 19.600  0.5147E+00  0.1036E+02
 19.610  0.5128E+00  0.1037E+02
 19.620  0.5110E+00  0.1037E+02
 19.630  0.5091E+00  0.1038E+02
 19.640  0.5073E+00  0.1038E+02
 19.650  0.5053E+00  0.1039E+02
 19.660  0.5033E+00  0.1039E+02
 19.670  0.5013E+00  0.1040E+02
 19.680  0.4993E+00  0.1040E+02
 19.690  0.4974E+00  0.1041E+02
 19.700  0.4954E+00  0.1041E+02
 19.710  0.4934E+00  0.1042E+02
 19.720  0.4916E+00  0.1042E+02
 19.730  0.4900E+00  0.1043E+02
 19.740  0.4886E+00  0.1043E+02
 19.750  0.4874E+00  0.1044E+02
 19.760  0.4861E+00  0.1044E+02
 19.770  0.4834E+00  0.1045E+02
 19.780  0.4826E+00  0.1045E+02
 19.790  0.4834E+00  0.1045E+02
 19.800  0.4883E+00  0.1046E+02
 19.810  0.4904E+00  0.1046E+02
 19.820  0.4902E+00  0.1047E+02
 19.830  0.4902E+00  0.1047E+02
 19.840  0.4908E+00  0.1048E+02
 19.850  0.4919E+00  0.1048E+02
 19.860  0.4933E+00  0.1049E+02
 19.870  0.4947E+00  0.1049E+02
 19.880  0.4964E+00  0.1050E+02
 19.890  0.4983E+00  0.1050E+02
 19.900  0.5065E+00  0.1051E+02
 19.910  0.5119E+00  0.1051E+02
 19.920  0.5078E+00  0.1052E+02
 19.930  0.5032E+00  0.1052E+02
 19.940  0.4983E+00  0.1053E+02
 19.950  0.4938E+00  0.1053E+02
 19.960  0.4902E+00  0.1054E+02
 19.970  0.4874E+00  0.1054E+02
 19.980  0.4853E+00  0.1055E+02
 19.990  0.4838E+00  0.1055E+02
 20.000  0.4819E+00  0.1056E+02
 20.010  0.4812E+00  0.1056E+02
 20.020  0.4807E+00  0.1057E+02
 20.030  0.4804E+00  0.1057E+02
 20.040  0.4801E+00  0.1058E+02
 20.050  0.4799E+00  0.1058E+02
 20.060  0.4768E+00  0.1059E+02
 20.070  0.4764E+00  0.1059E+02
 20.080  0.4758E+00  0.1060E+02
 20.090  0.4753E+00  0.1060E+02
 20.100  0.4725E+00  0.1061E+02
 20.110  0.4523E+00  0.1061E+02
 20.120  0.4455E+00  0.1062E+02
 20.130  0.4410E+00  0.1062E+02
 20.140  0.4387E+00  0.1062E+02
 20.150  0.4370E+00  0.1063E+02
 20.160  0.4356E+00  0.1063E+02
 20.170  0.4344E+00  0.1064E+02
 20.180  0.4334E+00  0.1064E+02
 20.190  0.4324E+00  0.1065E+02
 20.200  0.4318E+00  0.1065E+02
 20.210  0.4337E+00  0.1065E+02
 20.220  0.4382E+00  0.1066E+02
 20.230  0.4426E+00  0.1066E+02
 20.240  0.4457E+00  0.1067E+02
 20.250  0.4475E+00  0.1067E+02
 20.260  0.4476E+00  0.1068E+02
 20.270  0.4475E+00  0.1068E+02
 20.280  0.4481E+00  0.1069E+02
 20.290  0.4555E+00  0.1069E+02
 20.300  0.4684E+00  0.1070E+02
 20.310  0.4868E+00  0.1070E+02
 20.320  0.4948E+00  0.1070E+02
 20.330  0.5064E+00  0.1071E+02
 20.340  0.5106E+00  0.1072E+02
 20.350  0.4912E+00  0.1072E+02
 20.360  0.4729E+00  0.1072E+02
 20.370  0.4589E+00  0.1073E+02
 20.380  0.4490E+00  0.1073E+02
 20.390  0.4411E+00  0.1074E+02
 20.400  0.4337E+00  0.1074E+02
 20.410  0.4270E+00  0.1075E+02
 20.420  0.4208E+00  0.1075E+02
 20.430  0.4151E+00  0.1076E+02
 20.440  0.4098E+00  0.1076E+02
 20.450  0.4046E+00  0.1076E+02
 20.460  0.3994E+00  0.1077E+02
 20.470  0.3942E+00  0.1077E+02
 20.480  0.3897E+00  0.1078E+02
 20.490  0.3856E+00  0.1078E+02
 20.500  0.3814E+00  0.1078E+02
 20.510  0.3732E+00  0.1079E+02
 20.520  0.3601E+00  0.1079E+02
 20.530  0.3542E+00  0.1079E+02
 20.540  0.3495E+00  0.1080E+02
 20.550  0.3462E+00  0.1080E+02
 20.560  0.3432E+00  0.1080E+02
 20.570  0.3392E+00  0.1081E+02
 20.580  0.3369E+00  0.1081E+02
 20.590  0.3351E+00  0.1081E+02
 20.600  0.3339E+00  0.1082E+02
 20.610  0.3331E+00  0.1082E+02
 20.620  0.3329E+00  0.1082E+02
 20.630  0.3332E+00  0.1083E+02
 20.640  0.3339E+00  0.1083E+02
 20.650  0.3351E+00  0.1083E+02
 20.660  0.3248E+00  0.1084E+02
 20.670  0.3160E+00  0.1084E+02
 20.680  0.3102E+00  0.1084E+02
 20.690  0.3062E+00  0.1085E+02
 20.700  0.3023E+00  0.1085E+02
 20.710  0.2987E+00  0.1085E+02
 20.720  0.2954E+00  0.1086E+02
 20.730  0.2922E+00  0.1086E+02
 20.740  0.2893E+00  0.1086E+02
 20.750  0.2866E+00  0.1086E+02
 20.760  0.2841E+00  0.1087E+02
 20.770  0.2818E+00  0.1087E+02
 20.780  0.2797E+00  0.1087E+02
 20.790  0.2777E+00  0.1088E+02
 20.800  0.2760E+00  0.1088E+02
 20.810  0.2745E+00  0.1088E+02
 20.820  0.2732E+00  0.1088E+02
 20.830  0.2720E+00  0.1089E+02
 20.840  0.2709E+00  0.1089E+02
 20.850  0.2699E+00  0.1089E+02
 20.860  0.2691E+00  0.1089E+02
 20.870  0.2683E+00  0.1090E+02
 20.880  0.2676E+00  0.1090E+02
 20.890  0.2670E+00  0.1090E+02
 20.900  0.2665E+00  0.1091E+02
 20.910  0.2661E+00  0.1091E+02
 20.920  0.2658E+00  0.1091E+02
 20.930  0.2656E+00  0.1091E+02
 20.940  0.2655E+00  0.1092E+02
 20.950  0.2654E+00  0.1092E+02
 20.960  0.2656E+00  0.1092E+02
 20.970  0.2660E+00  0.1092E+02
 20.980  0.2664E+00  0.1093E+02
 20.990  0.2667E+00  0.1093E+02
 21.000  0.2674E+00  0.1093E+02
 21.010  0.2685E+00  0.1093E+02
 21.020  0.2717E+00  0.1094E+02
 21.030  0.2860E+00  0.1094E+02
 21.040  0.2979E+00  0.1094E+02
 21.050  0.3016E+00  0.1095E+02
 21.060  0.3032E+00  0.1095E+02
 21.070  0.3035E+00  0.1095E+02
 21.080  0.3033E+00  0.1096E+02
 21.090  0.3026E+00  0.1096E+02
 21.100  0.3017E+00  0.1096E+02
 21.110  0.3009E+00  0.1096E+02
 21.120  0.3003E+00  0.1097E+02
 21.130  0.2999E+00  0.1097E+02
 21.140  0.2997E+00  0.1097E+02
 21.150  0.2996E+00  0.1098E+02
 21.160  0.2998E+00  0.1098E+02
 21.170  0.3001E+00  0.1098E+02
 21.180  0.3005E+00  0.1099E+02
 21.190  0.3011E+00  0.1099E+02
 21.200  0.3018E+00  0.1099E+02
 21.210  0.3026E+00  0.1099E+02
 21.220  0.3037E+00  0.1100E+02
 21.230  0.3050E+00  0.1100E+02
 21.240  0.3065E+00  0.1100E+02
 21.250  0.3079E+00  0.1101E+02
 21.260  0.3094E+00  0.1101E+02
 21.270  0.3110E+00  0.1101E+02
 21.280  0.3126E+00  0.1102E+02
 21.290  0.3143E+00  0.1102E+02
 21.300  0.3160E+00  0.1102E+02
 21.310  0.3177E+00  0.1103E+02
 21.320  0.3188E+00  0.1103E+02
 21.330  0.3201E+00  0.1103E+02
 21.340  0.3219E+00  0.1104E+02
 21.350  0.3239E+00  0.1104E+02
 21.360  0.3260E+00  0.1104E+02
 21.370  0.3281E+00  0.1104E+02
 21.380  0.3302E+00  0.1105E+02
 21.390  0.3325E+00  0.1105E+02
 21.400  0.3348E+00  0.1105E+02
 21.410  0.3372E+00  0.1106E+02
 21.420  0.3399E+00  0.1106E+02
 21.430  0.3431E+00  0.1107E+02
 21.440  0.3468E+00  0.1107E+02
 21.450  0.3510E+00  0.1107E+02
 21.460  0.3556E+00  0.1108E+02
 21.470  0.3633E+00  0.1108E+02
 21.480  0.3776E+00  0.1108E+02
 21.490  0.3947E+00  0.1109E+02
 21.500  0.4121E+00  0.1109E+02
 21.510  0.3994E+00  0.1110E+02
 21.520  0.3470E+00  0.1110E+02
 21.530  0.3445E+00  0.1110E+02
 21.540  0.3421E+00  0.1111E+02
 21.550  0.3397E+00  0.1111E+02
 21.560  0.3373E+00  0.1111E+02
 21.570  0.3348E+00  0.1112E+02
 21.580  0.3324E+00  0.1112E+02
 21.590  0.3300E+00  0.1112E+02
 21.600  0.3277E+00  0.1113E+02
 21.610  0.3255E+00  0.1113E+02
 21.620  0.3234E+00  0.1113E+02
 21.630  0.3214E+00  0.1114E+02
 21.640  0.3197E+00  0.1114E+02
 21.650  0.3180E+00  0.1114E+02
 21.660  0.3166E+00  0.1114E+02
 21.670  0.3154E+00  0.1115E+02
 21.680  0.3143E+00  0.1115E+02
 21.690  0.3132E+00  0.1115E+02
 21.700  0.3122E+00  0.1116E+02
 21.710  0.3112E+00  0.1116E+02
 21.720  0.3103E+00  0.1116E+02
 21.730  0.3095E+00  0.1117E+02
 21.740  0.3087E+00  0.1117E+02
 21.750  0.3079E+00  0.1117E+02
 21.760  0.3072E+00  0.1118E+02
 21.770  0.3066E+00  0.1118E+02
 21.780  0.3059E+00  0.1118E+02
 21.790  0.3053E+00  0.1118E+02
 21.800  0.3047E+00  0.1119E+02
 21.810  0.3041E+00  0.1119E+02
 21.820  0.3034E+00  0.1119E+02
 21.830  0.3028E+00  0.1120E+02
 21.840  0.3022E+00  0.1120E+02
 21.850  0.3015E+00  0.1120E+02
 21.860  0.3009E+00  0.1121E+02
 21.870  0.3001E+00  0.1121E+02
 21.880  0.2994E+00  0.1121E+02
 21.890  0.2986E+00  0.1122E+02
 21.900  0.2978E+00  0.1122E+02
 21.910  0.2972E+00  0.1122E+02
 21.920  0.2966E+00  0.1122E+02
 21.930  0.2961E+00  0.1123E+02
 21.940  0.2957E+00  0.1123E+02
 21.950  0.2953E+00  0.1123E+02
 21.960  0.2951E+00  0.1124E+02
 21.970  0.2949E+00  0.1124E+02
 21.980  0.2947E+00  0.1124E+02
 21.990  0.2946E+00  0.1124E+02
 22.000  0.2946E+00  0.1125E+02
 22.010  0.2945E+00  0.1125E+02
 22.020  0.2944E+00  0.1125E+02
 22.030  0.2944E+00  0.1126E+02
 22.040  0.2932E+00  0.1126E+02
 22.050  0.2934E+00  0.1126E+02
 22.060  0.2936E+00  0.1127E+02
 22.070  0.3001E+00  0.1127E+02
 22.080  0.3007E+00  0.1127E+02
 22.090  0.3011E+00  0.1127E+02
 22.100  0.3016E+00  0.1128E+02
 22.110  0.3020E+00  0.1128E+02
 22.120  0.3023E+00  0.1128E+02
 22.130  0.3026E+00  0.1129E+02
 22.140  0.3027E+00  0.1129E+02
 22.150  0.3028E+00  0.1129E+02
 22.160  0.3028E+00  0.1130E+02
 22.170  0.3028E+00  0.1130E+02
 22.180  0.3027E+00  0.1130E+02
 22.190  0.3026E+00  0.1130E+02
 22.200  0.3024E+00  0.1131E+02
 22.210  0.3021E+00  0.1131E+02
 22.220  0.3019E+00  0.1131E+02
 22.230  0.3018E+00  0.1132E+02
 22.240  0.3019E+00  0.1132E+02
 22.250  0.3022E+00  0.1132E+02
 22.260  0.3027E+00  0.1133E+02
 22.270  0.3034E+00  0.1133E+02
 22.280  0.3042E+00  0.1133E+02
 22.290  0.3048E+00  0.1133E+02
 22.300  0.3049E+00  0.1134E+02
 22.310  0.3051E+00  0.1134E+02
 22.320  0.3053E+00  0.1134E+02
 22.330  0.3055E+00  0.1135E+02
 22.340  0.3057E+00  0.1135E+02
 22.350  0.3060E+00  0.1135E+02
 22.360  0.3063E+00  0.1136E+02
 22.370  0.3067E+00  0.1136E+02
 22.380  0.3071E+00  0.1136E+02
 22.390  0.3076E+00  0.1137E+02
 22.400  0.3082E+00  0.1137E+02
 22.410  0.3087E+00  0.1137E+02
 22.420  0.3092E+00  0.1137E+02
 22.430  0.3097E+00  0.1138E+02
 22.440  0.3103E+00  0.1138E+02
 22.450  0.3109E+00  0.1138E+02
 22.460  0.3113E+00  0.1139E+02
 22.470  0.3115E+00  0.1139E+02
 22.480  0.3118E+00  0.1139E+02
 22.490  0.3121E+00  0.1140E+02
 22.500  0.3124E+00  0.1140E+02
 22.510  0.3132E+00  0.1140E+02
 22.520  0.3141E+00  0.1141E+02
 22.530  0.3149E+00  0.1141E+02
 22.540  0.3155E+00  0.1141E+02
 22.550  0.3159E+00  0.1142E+02
 22.560  0.3161E+00  0.1142E+02
 22.570  0.3160E+00  0.1142E+02
 22.580  0.3159E+00  0.1142E+02
 22.590  0.3157E+00  0.1143E+02
 22.600  0.3157E+00  0.1143E+02
 22.610  0.3158E+00  0.1143E+02
 22.620  0.3159E+00  0.1144E+02
 22.630  0.3159E+00  0.1144E+02
 22.640  0.3158E+00  0.1144E+02
 22.650  0.3158E+00  0.1145E+02
 22.660  0.3168E+00  0.1145E+02
 22.670  0.3179E+00  0.1145E+02
 22.680  0.3191E+00  0.1146E+02
 22.690  0.3204E+00  0.1146E+02
 22.700  0.3218E+00  0.1146E+02
 22.710  0.3232E+00  0.1147E+02
 22.720  0.3248E+00  0.1147E+02
 22.730  0.3162E+00  0.1147E+02
 22.740  0.3166E+00  0.1148E+02
 22.750  0.3171E+00  0.1148E+02
 22.760  0.3176E+00  0.1148E+02
 22.770  0.3181E+00  0.1149E+02
 22.780  0.3187E+00  0.1149E+02
 22.790  0.3192E+00  0.1149E+02
 22.800  0.3198E+00  0.1149E+02
 22.810  0.3204E+00  0.1150E+02
 22.820  0.3210E+00  0.1150E+02
 22.830  0.3216E+00  0.1150E+02
 22.840  0.3222E+00  0.1151E+02
 22.850  0.3230E+00  0.1151E+02
 22.860  0.3244E+00  0.1151E+02
 22.870  0.3269E+00  0.1152E+02
 22.880  0.3305E+00  0.1152E+02
 22.890  0.3325E+00  0.1152E+02
 22.900  0.3332E+00  0.1153E+02
 22.910  0.3339E+00  0.1153E+02
 22.920  0.3344E+00  0.1153E+02
 22.930  0.3348E+00  0.1154E+02
 22.940  0.3352E+00  0.1154E+02
 22.950  0.3355E+00  0.1154E+02
 22.960  0.3357E+00  0.1155E+02
 22.970  0.3359E+00  0.1155E+02
 22.980  0.3360E+00  0.1155E+02
 22.990  0.3361E+00  0.1156E+02
 23.000  0.3362E+00  0.1156E+02
